Date/time start measurement:  11/12/2021 - 11:55 AM
Frequency(GHz):8.000000E+0
Power(dBm):1.200000E+1
Time between measurements:1.000000E+0
Samplename: 	

-1189.95	-0.00000724307
-1189.25	-0.00000707591
-1182.94	-0.00000687264
-1176.51	-0.00000680207
-1170	-0.00000673524
-1163.11	-0.00000668464
-1156.32	-0.0000066436
-1149.44	-0.0000065683
-1142.57	-0.00000652482
-1135.32	-0.00000642519
-1128.23	-0.00000638824
-1121.1	-0.0000064179
-1113.74	-0.00000643811
-1106.49	-0.00000646814
-1099.03	-0.0000065139
-1091.66	-0.00000653981
-1084.37	-0.00000657117
-1077.11	-0.00000659841
-1069.61	-0.00000656548
-1062.06	-0.00000651366
-1054.71	-0.00000651233
-1047.26	-0.00000658934
-1039.62	-0.00000662808
-1032.1	-0.00000666597
-1024.54	-0.00000669732
-1017.04	-0.00000671124
-1009.33	-0.00000672685
-1001.79	-0.00000674004
-994.25	-0.00000676245
-986.53	-0.00000677056
-978.89	-0.000006788
-971.3	-0.00000676852
-963.56	-0.00000677893
-955.95	-0.00000680108
-948.21	-0.00000681076
-940.56	-0.00000679794
-932.88	-0.0000067925
-925.09	-0.00000678075
-917.32	-0.00000679552
-909.72	-0.0000068259
-901.92	-0.00000689512
-894.19	-0.0000069151
-886.24	-0.00000693085
-878.64	-0.00000697697
-870.9	-0.00000702469
-863.02	-0.00000708158
-855.08	-0.00000712275
-847.46	-0.00000715761
-839.55	-0.00000719635
-831.84	-0.00000718609
-823.97	-0.00000725025
-816.16	-0.00000722783
-808.29	-0.00000730023
-800.6	-0.00000735978
-792.69	-0.00000740711
-784.7	-0.00000751788
-776.95	-0.00000761243
-769.07	-0.00000767974
-761.2	-0.00000778626
-753.2	-0.00000786653
-745.4	-0.0000079634
-737.49	-0.00000801739
-729.62	-0.00000812115
-721.58	-0.00000823277
-713.8	-0.00000832066
-705.81	-0.000008299
-698.01	-0.00000835118
-689.79	-0.00000847104
-681.93	-0.00000859041
-674.12	-0.00000878325
-666.17	-0.00000906109
-658.13	-0.00000922574
-650.12	-0.00000942525
-642.34	-0.00000960757
-634.44	-0.00000974543
-626.27	-0.00000988877
-618.26	-0.0000100696
-610.53	-0.0000102262
-602.37	-0.0000103413
-594.26	-0.0000104154
-586.28	-0.0000105147
-578.42	-0.0000105034
-570.72	-0.0000104218
-562.58	-0.0000102553
-554.48	-0.0000100102
-546.58	-0.00000968977
-538.8	-0.00000934462
-530.85	-0.00000905311
-522.45	-0.00000862987
-514.32	-0.00000826475
-506.49	-0.00000789028
-498.51	-0.00000757358
-490.31	-0.00000722117
-482.22	-0.00000691911
-474.18	-0.00000667493
-466.38	-0.00000644951
-458.17	-0.00000623546
-450.16	-0.00000605011
-442.06	-0.00000592336
-434.17	-0.00000581114
-425.89	-0.00000564576
-417.8	-0.00000555061
-409.75	-0.00000541781
-401.8	-0.00000527421
-393.66	-0.00000515799
-385.61	-0.00000502568
-377.52	-0.00000493476
-369.56	-0.00000483077
-361.33	-0.00000478028
-353.29	-0.00000475595
-345.24	-0.00000462011
-337.22	-0.00000455594
-329	-0.0000044418
-321.04	-0.00000441262
-312.93	-0.00000436638
-304.89	-0.00000433188
-296.75	-0.00000428188
-288.66	-0.00000430936
-280.52	-0.00000423624
-272.44	-0.00000420986
-264.28	-0.00000418395
-256.24	-0.0000041957
-248.07	-0.00000419049
-239.9	-0.00000421446
-231.84	-0.00000430357
-223.71	-0.00000426943
-215.56	-0.00000431434
-207.54	-0.00000431398
-199.88	-0.00000429678
-191.349	-0.00000433601
-183.274	-0.00000431009
-175.135	-0.00000441856
-167.002	-0.00000446529
-158.767	-0.00000447038
-150.608	-0.00000452195
-142.535	-0.00000453018
-134.44	-0.00000454653
-126.144	-0.00000451565
-118.109	-0.00000445791
-109.959	-0.00000433563
-101.821	-0.00000429229
-93.455	-0.00000427135
-85.391	-0.00000423139
-77.281	-0.00000422437
-69.107	-0.00000423854
-60.8	-0.00000419532
-52.793	-0.00000426917
-44.63	-0.00000429047
-36.557	-0.00000437001
-28.191	-0.00000438345
-19.999	-0.00000437885
-12.0896	-0.00000439326
-3.893	-0.00000429763
4.2382	-0.00000178848
12.6291	0.000000535322
20.8334	0.000000701179
28.8857	0.000000783986
37.703	0.000000925145
45.401	0.00000100831
53.508	0.00000101279
61.559	0.00000105093
69.779	0.00000108495
78.04	0.00000106897
86.226	0.00000106352
93.967	0.00000106521
102.148	0.00000100662
110.407	0.00000091558
118.892	0.000000913523
126.767	0.000000890884
135.019	0.000000770184
143.468	0.000000656748
151.38	0.00000063653
159.767	0.00000058762
167.512	0.00000062854
175.918	0.000000586894
184.241	0.000000529026
192.543	0.000000508687
200.542	0.000000385203
208.954	0.000000287142
217.174	0.000000169832
225.404	0.000000140414
233.582	0.000000209299
241.781	0.000000262688
249.889	0.000000309297
258.044	0.000000356874
266.234	0.000000383871
274.385	0.000000436655
282.717	0.000000414379
290.987	0.000000436413
299.014	0.0000004076
307.78	0.000000367891
315.48	0.000000372129
323.62	0.000000263172
331.84	0.000000196224
340.05	0.000000150099
348.22	0.000000153005
356.33	0.000000140657
364.57	0.000000123587
372.86	0.000000163538
380.97	0.000000181697
389.18	0.000000226732
397.47	0.000000273343
405.62	0.000000374673
413.92	0.000000446825
422.06	0.000000507357
430.24	0.000000581811
438.42	0.000000658081
446.85	0.000000825148
454.88	0.000000982414
463.08	0.00000125372
471.38	0.00000152986
479.7	0.00000181472
487.64	0.00000205866
495.87	0.00000240986
504.04	0.00000276724
512.47	0.00000312231
520.62	0.00000354337
528.8	0.00000397362
536.91	0.00000438245
545.36	0.00000470133
553.42	0.00000496851
561.58	0.00000515206
569.73	0.00000528887
578.03	0.0000053891
586.42	0.00000545303
594.34	0.0000055
602.69	0.00000548873
610.72	0.00000541052
619.24	0.00000524128
627.36	0.00000511053
635.43	0.00000483426
643.6	0.00000460243
651.92	0.00000437652
660.12	0.00000420873
668.23	0.00000408234
676.42	0.00000391395
684.77	0.0000037309
692.98	0.00000353321
701.01	0.00000333224
709.29	0.00000319664
717.65	0.00000295851
725.79	0.00000285053
734.07	0.0000027423
742.13	0.00000260767
750.4	0.00000249012
758.64	0.00000234787
766.93	0.00000229715
774.97	0.00000227996
783.26	0.00000219025
791.49	0.00000219752
799.59	0.00000216035
807.6	0.00000206737
816.08	0.00000204861
824.21	0.00000205745
832.37	0.00000204643
840.64	0.00000204449
848.66	0.0000019836
856.97	0.00000186047
865.34	0.00000181871
873.2	0.00000173142
881.18	0.00000168663
889.79	0.00000163627
897.97	0.00000161883
906.19	0.00000160309
914.16	0.0000015761
922.61	0.00000150225
930.75	0.00000148603
939.03	0.00000141097
947.15	0.00000138591
955.33	0.00000134766
963.54	0.00000134766
971.72	0.00000138373
979.83	0.00000142973
988.12	0.00000144693
996.35	0.0000014715
1004.48	0.00000145201
1012.66	0.00000148603
1020.92	0.00000145915
1029.03	0.00000139862
1037.24	0.00000133506
1045.38	0.00000126897
1053.67	0.00000126473
1061.59	0.00000122623
1069.72	0.00000120916
1077.75	0.00000117684
1086.29	0.00000111001
1094.41	0.00000109875
1102.5	0.00000109536
1110.67	0.00000105117
1118.78	0.00000103773
1127.03	0.000000996815
1135.22	0.000000979503
1143.44	0.00000098253
1151.69	0.000000949964
1159.8	0.000000977446
1167.93	0.000000983378
1176.1	0.000000989428
1184.27	0.000000965821
1192.46	0.000000929743
1200.63	0.000000942091
1208.77	0.000000951897
