Date/time start measurement:  11/15/2021 - 9:39 AM
Frequency(GHz):8.000000E+0
Power(dBm):1.200000E+1
Time between measurements:1.000000E+0
Samplename: 	

-1189.97	-0.0000017852
-1189.23	-0.00000171474
-1181.46	-0.00000160034
-1173.4	-0.0000015639
-1165.12	-0.00000147286
-1156.54	-0.00000146608
-1147.8	-0.00000142625
-1139.26	-0.00000143218
-1130.39	-0.00000143315
-1121.5	-0.00000139357
-1112.54	-0.00000141778
-1103.18	-0.00000144454
-1094.17	-0.00000142674
-1085.04	-0.00000148412
-1075.87	-0.00000148291
-1066.58	-0.00000152383
-1057.2	-0.00000151148
-1048.08	-0.00000149575
-1038.53	-0.00000150579
-1029.17	-0.00000151015
-1019.82	-0.00000157166
-1010.23	-0.00000155822
-1000.87	-0.00000161512
-991.29	-0.00000159369
-981.94	-0.00000158461
-972.25	-0.00000159357
-962.57	-0.00000156984
-953.13	-0.00000161984
-943.58	-0.00000164163
-933.83	-0.00000166088
-924.11	-0.00000167783
-914.51	-0.00000169901
-904.96	-0.0000017403
-895.21	-0.00000172008
-885.49	-0.00000172758
-875.84	-0.00000176717
-865.93	-0.00000174138
-856.14	-0.00000179393
-846.58	-0.0000018346
-836.8	-0.00000185917
-826.96	-0.00000188932
-817.12	-0.00000194174
-807.41	-0.00000198217
-797.73	-0.00000197224
-787.8	-0.00000207696
-778.02	-0.00000209669
-768.19	-0.00000216582
-758.16	-0.00000223289
-748.51	-0.00000229076
-738.58	-0.00000237574
-728.73	-0.00000240516
-718.63	-0.00000246399
-708.86	-0.00000256
-699.04	-0.00000260685
-689.06	-0.00000274777
-679.22	-0.00000274232
-669.14	-0.0000027997
-659.17	-0.00000282137
-649.29	-0.00000278457
-639.4	-0.00000275854
-629.48	-0.00000262077
-619.46	-0.00000253046
-609.48	-0.00000230686
-599.51	-0.00000211231
-589.54	-0.00000189077
-579.46	-0.00000156172
-569.47	-0.00000133788
-559.48	-0.0000010305
-549.62	-0.000000839466
-539.68	-0.000000665741
-529.53	-0.000000404368
-519.49	-0.000000287058
-509.45	-0.000000142752
-499.53	-0.0000000382753
-489.39	0.0000000140238
-479.38	0.000000121165
-469.3	0.000000130244
-459.2	0.000000231453
-449.27	0.000000233753
-439.31	0.000000278425
-429.1	0.000000279394
-418.87	0.000000277578
-408.74	0.000000309417
-398.95	0.000000269467
-388.78	0.000000302153
-378.66	0.000000283752
-368.69	0.000000259297
-358.47	0.00000032915
-348.38	0.000000306512
-338.37	0.000000346947
-328.17	0.000000349248
-318.04	0.000000375034
-307.91	0.000000378424
-297.86	0.000000342953
-287.8	0.000000329515
-277.71	0.000000305908
-267.32	0.000000349007
-257.24	0.000000327456
-247.2	0.000000315955
-237.02	0.000000299854
-226.84	0.000000331936
-216.68	0.000000337626
-206.37	0.000000310992
-195.846	0.000000277215
-186.449	0.000000291257
-176.124	0.000000263292
-165.968	0.000000311838
-155.755	0.000000307117
-145.559	0.000000329997
-135.379	0.000000337746
-125.186	0.000000329755
-115.004	0.000000312928
-104.727	0.000000323823
-94.649	0.000000315228
-84.599	0.000000336293
-74.277	0.000000308812
-64.228	0.000000347915
-53.821	0.000000324308
-43.545	0.000000333872
-33.434	0.000000286657
-23.192	0.000000241743
-12.5056	0.000000194044
-2.7577	0.000000139202
7.4997	0.00000020058
17.604	0.000000162688
27.8833	0.000000190654
38.8	0.000000296825
48.469	0.000000502388
58.592	0.000000962667
68.805	0.000000938335
79.137	0.000000832163
89.369	0.000000781562
99.437	0.000000733622
109.457	0.000000685561
119.929	0.000000660259
130.055	0.000000601301
140.138	0.000000572609
150.637	0.000000527453
161.001	0.000000492828
170.999	0.000000483264
181.268	0.000000450698
191.594	0.000000457236
201.883	0.000000448277
212.139	0.000000429632
222.268	0.000000405783
232.652	0.000000361111
242.794	0.000000368859
253.14	0.000000326125
263.4	0.000000322614
273.456	0.000000303244
283.752	0.000000280847
294.069	0.000000276973
304.8	0.000000271284
314.59	0.000000252035
324.54	0.000000223222
334.89	0.000000234844
345.1	0.000000227096
355.37	0.000000216684
365.71	0.000000230727
376.07	0.000000230727
386.1	0.00000022988
396.59	0.000000206272
406.81	0.000000205909
416.94	0.000000198523
427.28	0.000000192349
437.48	0.000000194891
447.86	0.000000195133
457.92	0.000000269103
468.35	0.000000312807
478.68	0.000000363774
488.79	0.00000043169
499	0.00000052963
509.37	0.000000651419
519.7	0.000000788341
529.93	0.000000972235
540.11	0.00000118833
550.4	0.00000136169
560.59	0.00000171447
570.84	0.00000198904
581.3	0.00000232051
591.51	0.00000253697
601.57	0.00000273588
611.94	0.00000296251
622.21	0.00000307764
632.44	0.00000324809
642.67	0.00000325185
652.93	0.00000326093
663.1	0.00000324785
673.27	0.00000318865
683.84	0.00000315161
693.72	0.00000306432
704.18	0.00000298381
714.53	0.00000295839
724.72	0.00000286142
734.97	0.00000285173
745.17	0.00000281203
755.6	0.00000275222
765.83	0.00000270077
776.09	0.00000261784
786.34	0.00000254847
796.44	0.00000250392
806.6	0.00000247584
816.65	0.00000244254
827.22	0.00000238613
837.52	0.00000235247
847.36	0.00000234581
857.78	0.00000230937
868.2	0.00000229836
878.5	0.00000227427
888.78	0.00000228673
899.09	0.00000224545
909.23	0.00000216555
919.36	0.00000213795
929.7	0.00000211894
940.02	0.0000021026
950.24	0.00000208347
960.34	0.00000206701
970.62	0.00000200623
980.89	0.00000198275
991.07	0.0000019911
1001.37	0.00000193989
1011.52	0.00000193832
1021.64	0.0000018974
1031.77	0.00000186737
1042.23	0.00000189655
1052.51	0.00000188432
1062.45	0.00000184837
1072.84	0.00000183275
1082.81	0.00000183263
1093.19	0.00000184801
1103.55	0.00000181144
1113.56	0.00000182767
1123.89	0.00000182065
1134.06	0.00000178191
1144.15	0.00000175793
1154.53	0.00000173094
1164.52	0.00000171798
1174.76	0.00000166593
1184.85	0.00000169026
1195.19	0.00000171254
1205.32	0.00000169377
