Date/time start measurement:  11/12/2021 - 12:52 PM
Frequency(GHz):8.000000E+0
Power(dBm):9.000000E+0
Time between measurements:1.000000E+0
Samplename: 	

-1189.92	-0.00000546792
-1189.43	-0.00000528693
-1182.92	-0.00000509492
-1176.6	-0.00000499808
-1170.03	-0.00000493174
-1163.19	-0.00000489481
-1156.39	-0.00000488284
-1149.44	-0.00000485015
-1142.5	-0.00000480464
-1135.33	-0.00000476154
-1128.27	-0.0000047406
-1121.16	-0.00000473152
-1113.88	-0.00000465815
-1106.63	-0.00000462122
-1099.22	-0.00000464483
-1091.86	-0.00000460403
-1084.56	-0.00000459689
-1077.32	-0.00000458333
-1069.71	-0.00000453915
-1062.21	-0.00000447389
-1054.76	-0.00000448975
-1047.48	-0.00000454544
-1039.8	-0.00000455476
-1032.26	-0.00000458127
-1024.66	-0.00000458055
-1017.15	-0.00000449435
-1009.56	-0.00000446311
-1001.96	-0.00000447182
-994.32	-0.00000449543
-986.81	-0.0000045378
-978.99	-0.00000456758
-971.45	-0.00000456904
-963.81	-0.00000456323
-956.13	-0.00000462461
-948.47	-0.00000465137
-940.63	-0.00000466965
-933.02	-0.00000469301
-925.32	-0.00000469023
-917.6	-0.00000471238
-909.88	-0.00000471323
-902.04	-0.00000470028
-894.26	-0.00000471154
-886.44	-0.00000472002
-878.82	-0.00000471784
-871.06	-0.00000471614
-863.26	-0.0000047653
-855.28	-0.00000478105
-847.64	-0.00000480744
-839.77	-0.00000482584
-831.93	-0.00000484666
-824.24	-0.00000493601
-816.27	-0.00000492294
-808.45	-0.00000489086
-800.6	-0.00000486495
-792.88	-0.000004852
-784.86	-0.00000488358
-777.09	-0.0000048768
-769.17	-0.00000490331
-761.4	-0.00000495925
-753.36	-0.00000500864
-745.57	-0.00000507581
-737.71	-0.00000512194
-729.84	-0.00000527556
-721.74	-0.00000536321
-714.01	-0.00000540243
-706.04	-0.0000054994
-698.14	-0.00000557192
-689.96	-0.00000567821
-682.14	-0.00000578511
-674.25	-0.00000589687
-666.35	-0.00000604178
-658.21	-0.00000611987
-650.34	-0.00000625752
-642.4	-0.00000633282
-634.61	-0.00000649516
-626.4	-0.00000660049
-618.48	-0.00000669599
-610.71	-0.00000681427
-602.59	-0.00000686568
-594.5	-0.00000686677
-586.47	-0.00000677005
-578.55	-0.00000668615
-570.68	-0.00000656739
-562.75	-0.00000644961
-554.54	-0.00000632141
-546.65	-0.00000619067
-538.72	-0.00000602408
-530.68	-0.00000582822
-522.54	-0.00000556697
-514.46	-0.00000529845
-506.54	-0.00000510899
-498.62	-0.00000490088
-490.43	-0.00000467667
-482.48	-0.00000447062
-474.47	-0.00000428431
-466.6	-0.0000041446
-458.31	-0.00000397148
-450.33	-0.00000385127
-442.28	-0.00000382596
-434.32	-0.00000377512
-426.12	-0.00000375381
-418	-0.00000372959
-410.02	-0.00000373419
-401.97	-0.00000371276
-393.77	-0.00000367959
-385.73	-0.00000365296
-377.75	-0.00000364908
-369.61	-0.00000357015
-361.58	-0.00000359485
-353.48	-0.00000365078
-345.44	-0.0000035922
-337.34	-0.00000369692
-329.16	-0.00000367768
-321.23	-0.00000365346
-313.11	-0.00000363216
-304.97	-0.00000360819
-296.85	-0.00000360819
-288.76	-0.00000363494
-280.64	-0.00000370128
-272.63	-0.00000380599
-264.52	-0.00000381943
-256.31	-0.00000378771
-248.25	-0.00000374861
-240.03	-0.00000376858
-231.93	-0.00000376665
-223.85	-0.00000379086
-215.6	-0.00000381931
-207.58	-0.00000379509
-199.49	-0.00000386277
-191.503	-0.00000388165
-183.399	-0.00000392403
-175.147	-0.00000387851
-167.149	-0.00000385805
-158.893	-0.00000375611
-150.692	-0.00000374982
-142.661	-0.00000364449
-134.47	-0.00000350757
-126.273	-0.0000034675
-118.268	-0.00000346121
-110.003	-0.00000360902
-101.858	-0.00000371689
-93.672	-0.00000369776
-85.59	-0.00000368965
-77.464	-0.00000362222
-69.192	-0.00000352936
-60.875	-0.00000356774
-52.84	-0.0000035693
-44.673	-0.00000359775
-36.581	-0.00000360199
-28.216	-0.00000361058
-20.083	-0.00000360937
-11.6234	-0.00000360792
-3.9991	-0.00000358274
4.1869	-0.00000344546
12.5667	-0.00000116513
20.6743	-0.00000106779
28.7935	-0.000000971186
37.634	-0.000000907386
45.329	-0.000000851455
53.438	-0.00000082591
61.535	-0.000000819129
69.697	-0.000000794675
77.93	-0.000000803754
86.107	-0.000000838863
94.157	-0.000000873002
102.356	-0.000000892009
110.645	-0.000000937771
118.893	-0.00000102699
127	-0.00000102978
135.152	-0.00000102591
143.395	-0.00000101126
151.628	-0.000000975304
159.678	-0.00000106126
167.824	-0.0000010891
176.11	-0.00000110521
184.322	-0.00000111077
192.477	-0.00000103705
200.626	-0.00000107942
208.983	-0.00000102058
217.133	-0.00000101174
225.287	-0.00000104528
233.59	-0.0000010276
241.776	-0.00000104479
249.942	-0.00000101126
258.047	-0.0000011098
266.327	-0.00000114697
274.315	-0.00000116586
282.73	-0.00000120169
290.826	-0.0000012098
298.984	-0.00000127832
307.7	-0.00000129067
315.5	-0.00000128595
323.7	-0.00000130144
331.8	-0.00000129805
340.02	-0.00000131331
348.2	-0.00000132033
356.32	-0.00000135858
364.63	-0.00000145798
372.83	-0.00000151439
380.95	-0.00000153872
389.24	-0.00000142928
397.41	-0.00000142129
405.56	-0.00000136427
414.02	-0.00000133861
421.97	-0.00000127154
430.18	-0.00000119176
438.5	-0.00000114212
446.77	-0.00000104903
454.82	-0.000000931112
463.1	-0.000000779905
471.33	-0.000000403037
479.68	-0.000000482938
487.67	-0.000000245777
495.99	0.0000000893254
504.06	0.000000245013
512.36	0.000000456873
520.65	0.000000661591
528.63	0.000000830353
536.72	0.000000991488
545.02	0.00000124996
553.39	0.00000140734
561.5	0.00000148518
569.77	0.00000151
577.99	0.00000156
586.31	0.00000136097
594.35	0.00000137877
602.64	0.00000134595
610.8	0.00000128881
619.24	0.00000118301
627.42	0.00000103713
635.22	0.000000943063
643.57	0.000000824784
651.95	0.000000738588
660.18	0.000000648275
668.24	0.000000549971
676.41	0.000000493676
684.81	0.000000343194
692.83	0.000000260386
700.89	0.000000254091
709.27	0.000000212444
717.68	0.000000206633
725.77	0.000000136296
734.07	0.000000104699
742	0.000000109178
750.45	0.0000000415052
758.63	-0.0000000254426
766.84	-0.0000000662408
774.93	-0.000000109944
783.28	-0.000000142147
791.54	-0.000000189119
799.49	-0.000000191177
807.64	-0.000000320229
815.98	-0.000000289116
824.16	-0.000000242386
832.38	-0.000000237907
840.58	-0.000000260061
848.73	-0.000000282337
856.99	-0.000000292265
865.23	-0.000000285001
873.39	-0.000000375677
881.49	-0.000000435845
889.79	-0.000000469016
897.97	-0.000000523614
906.15	-0.000000539836
914.12	-0.000000578577
922.58	-0.000000619133
930.69	-0.000000592742
938.79	-0.00000055945
946.87	-0.000000533543
955.23	-0.000000473859
963.39	-0.000000374588
971.59	-0.000000460664
979.81	-0.000000511874
987.93	-0.000000466232
996.22	-0.000000427855
1004.34	-0.000000365508
1012.54	-0.000000302676
1020.89	-0.000000256309
1028.85	-0.000000213332
1037.1	-0.000000205342
1045.19	-0.000000265511
1053.48	-0.000000352434
1061.58	-0.000000404007
1069.84	-0.000000484756
1077.85	-0.000000477493
1086.13	-0.000000438389
1094.24	-0.000000472166
1102.4	-0.000000580033
1110.59	-0.000000632333
1118.77	-0.000000628456
1127.01	-0.000000629182
1135.13	-0.000000607027
1143.32	-0.000000568408
1151.41	-0.000000509814
1159.66	-0.000000483423
1167.73	-0.000000460421
1175.86	-0.000000563204
1183.81	-0.000000582816
1192.26	-0.000000525917
1200.31	-0.000000510421
1208.49	-0.000000565263
