Date/time start measurement:  11/12/2021 - 1:05 PM
Frequency(GHz):8.000000E+0
Power(dBm):1.500000E+1
Time between measurements:1.000000E+0
Samplename: 	

-1189.82	-0.0000108536
-1189.18	-0.0000106989
-1183.05	-0.0000105832
-1176.47	-0.0000104977
-1169.89	-0.0000104092
-1162.96	-0.0000103785
-1156.29	-0.000010344
-1149.33	-0.0000103164
-1142.4	-0.0000102679
-1135.2	-0.0000102305
-1128.19	-0.0000102101
-1121.24	-0.0000102028
-1113.83	-0.0000101488
-1106.65	-0.0000100849
-1099.11	-0.0000101269
-1091.84	-0.000010173
-1084.56	-0.0000101903
-1077.23	-0.0000101841
-1069.78	-0.0000102066
-1062.33	-0.0000102614
-1054.8	-0.0000102744
-1047.66	-0.0000103437
-1039.87	-0.0000103269
-1032.25	-0.0000103692
-1024.73	-0.0000103909
-1017.26	-0.0000104079
-1009.58	-0.0000104149
-1002.04	-0.0000104306
-994.37	-0.0000104836
-986.8	-0.000010522
-979.15	-0.0000105469
-971.51	-0.0000105794
-963.85	-0.0000105057
-956.19	-0.0000104906
-948.45	-0.0000105732
-940.79	-0.0000106708
-933.03	-0.0000107735
-925.28	-0.0000108429
-917.63	-0.0000109682
-909.86	-0.0000110357
-902.37	-0.000011104
-894.45	-0.0000112212
-886.47	-0.0000112881
-878.87	-0.0000113857
-871.06	-0.0000114671
-863.22	-0.0000115603
-855.32	-0.0000116036
-847.68	-0.0000116736
-839.87	-0.0000117207
-832	-0.0000117943
-824.22	-0.0000118593
-816.36	-0.0000119883
-808.51	-0.0000121021
-800.68	-0.0000122661
-792.9	-0.0000123537
-784.88	-0.0000124915
-777.18	-0.0000126708
-769.3	-0.0000128087
-761.42	-0.0000129995
-753.4	-0.0000131682
-745.68	-0.000013353
-737.78	-0.000013491
-730.04	-0.0000137195
-721.9	-0.0000138676
-714	-0.0000139617
-706.12	-0.0000141338
-698.19	-0.0000143243
-690.02	-0.0000146428
-682.22	-0.000014991
-674.32	-0.0000152014
-666.42	-0.000015597
-658.24	-0.0000158538
-650.39	-0.0000161621
-642.55	-0.000016564
-634.81	-0.0000169106
-626.48	-0.000017343
-618.45	-0.0000176957
-610.9	-0.0000179243
-602.89	-0.0000182178
-594.72	-0.000018381
-586.57	-0.0000184127
-578.84	-0.0000183127
-570.92	-0.0000181308
-563.02	-0.0000177956
-554.72	-0.0000173166
-546.65	-0.0000169324
-539.01	-0.0000163389
-530.85	-0.0000158562
-522.6	-0.0000149714
-514.56	-0.0000142993
-506.62	-0.000013559
-498.59	-0.000012767
-490.63	-0.0000119597
-482.48	-0.0000114247
-474.53	-0.0000110846
-466.63	-0.0000104519
-458.37	-0.000010067
-450.34	-0.000009647
-442.22	-0.00000915645
-434.32	-0.00000882958
-426.04	-0.00000862136
-417.99	-0.00000840381
-409.95	-0.00000842476
-402.25	-0.00000806883
-393.96	-0.00000790189
-385.75	-0.00000780298
-377.94	-0.00000783603
-369.91	-0.00000771352
-361.7	-0.0000076703
-353.58	-0.00000761717
-345.45	-0.00000769101
-337.34	-0.00000774647
-329.3	-0.00000762638
-321.19	-0.00000758361
-313.12	-0.00000758906
-305.02	-0.00000756075
-296.94	-0.00000753835
-288.82	-0.0000073662
-280.64	-0.00000749414
-272.63	-0.00000751509
-264.48	-0.00000743228
-256.33	-0.00000742611
-248.32	-0.00000742045
-240.13	-0.0000074679
-231.95	-0.00000753567
-223.93	-0.00000754366
-215.67	-0.00000784862
-207.82	-0.0000076231
-199.49	-0.0000077651
-191.528	-0.00000758193
-183.325	-0.00000745506
-175.175	-0.00000736256
-167.313	-0.0000072444
-158.936	-0.00000713302
-150.833	-0.00000719307
-142.615	-0.00000725723
-134.492	-0.00000725747
-126.185	-0.00000728035
-118.127	-0.00000675312
-110.061	-0.00000650361
-101.971	-0.0000066587
-93.68	-0.00000661149
-85.587	-0.00000660192
-77.359	-0.00000679405
-69.297	-0.00000673727
-60.931	-0.0000067656
-52.816	-0.00000680337
-44.734	-0.0000068127
-36.614	-0.00000680119
-28.331	-0.00000675008
-20.106	-0.00000674125
-11.6174	-0.000006699
-4.0297	-0.00000651728
4.1983	-0.00000587214
12.4888	0.00000294083
20.7196	0.00000338889
28.7934	0.0000036177
37.635	0.00000372121
45.347	0.00000389119
53.421	0.00000392993
61.423	0.00000400051
69.681	0.00000409373
77.784	0.00000407945
86.101	0.00000398611
94.105	0.00000396262
102.29	0.00000379569
110.646	0.00000366712
118.853	0.00000362366
126.983	0.00000348564
135.031	0.00000344872
143.399	0.00000331421
151.505	0.00000326058
159.716	0.00000322535
167.812	0.00000293904
176.137	0.00000282184
184.377	0.00000267911
192.521	0.00000256664
200.604	0.00000256023
208.914	0.00000256906
217.115	0.00000247863
225.275	0.00000248432
233.575	0.0000024394
241.72	0.00000242657
249.886	0.0000026521
258.072	0.00000262305
266.341	0.00000252353
274.339	0.00000253116
282.679	0.00000237305
290.884	0.00000229945
299.033	0.00000224194
307.77	0.00000226494
315.4	0.0000022302
323.64	0.00000228687
331.72	0.00000276543
339.98	0.00000301676
348.17	0.00000308382
356.32	0.00000319181
364.41	0.00000302946
372.79	0.0000028854
380.94	0.00000288528
389.15	0.00000321566
397.44	0.00000317026
405.64	0.00000349857
413.96	0.00000358755
421.98	0.00000390898
430.17	0.000004285
438.45	0.00000491611
446.81	0.00000535133
454.78	0.00000571428
463.06	0.00000617166
471.3	0.00000651935
479.59	0.00000698825
487.74	0.0000060379
495.97	0.00000676366
504.05	0.00000761558
512.45	0.00000821702
520.74	0.0000088503
528.76	0.00000928284
536.95	0.00000993792
545.25	0.000010686
553.44	0.0000110661
561.42	0.0000114758
569.71	0.0000117623
577.99	0.0000118989
586.24	0.0000120346
594.34	0.0000119985
602.59	0.0000118472
610.71	0.0000115841
619.24	0.0000112059
627.35	0.0000108067
635.37	0.0000105293
643.63	0.00000999449
651.95	0.00000968905
660.2	0.00000929715
667.94	0.0000088526
676.43	0.00000848784
684.73	0.00000816872
692.96	0.000007937
701.02	0.00000763203
709.25	0.00000763166
717.39	0.00000728727
725.75	0.00000699998
734.04	0.00000676683
742.03	0.00000660461
750.51	0.00000648028
758.7	0.0000063161
766.84	0.00000609516
774.86	0.00000592518
783.19	0.00000584261
791.37	0.00000572189
799.54	0.00000558715
807.62	0.00000545882
815.91	0.00000535507
824.19	0.00000531451
832.43	0.00000521549
840.54	0.0000053265
848.69	0.0000052667
857	0.00000523958
865.19	0.00000519914
873.39	0.00000512505
881.46	0.00000510701
889.85	0.00000509745
897.91	0.0000052052
906.06	0.00000533968
914.09	0.00000499562
922.54	0.00000499987
930.72	0.00000497166
938.96	0.00000522927
947.13	0.00000511644
955.31	0.00000509453
963.45	0.00000523159
971.64	0.00000504188
979.8	0.00000529891
987.77	0.00000555254
996.14	0.00000569104
1004.3	0.00000555387
1012.54	0.00000553427
1020.81	0.00000550291
1028.87	0.00000552822
1037.07	0.00000535956
1045.21	0.00000542651
1053.6	0.00000525109
1061.58	0.00000504298
1069.67	0.00000500666
1077.91	0.00000492519
1086.22	0.00000488064
1094.22	0.00000490654
1102.34	0.00000481345
1110.53	0.00000472798
1118.8	0.00000468524
1126.98	0.00000458282
1134.99	0.00000457641
1143.25	0.00000447459
1151.18	0.00000449421
1159.34	0.00000445728
1167.6	0.00000435547
1175.49	0.00000429457
1183.92	0.00000428912
1192.18	0.00000435207
1200.01	0.00000443464
1208.4	0.0000044798
