Date/time start measurement:  11/15/2021 - 12:19 PM
Frequency(GHz):1.000000E+1
Power(dBm):1.200000E+1
Time between measurements:1.000000E+0
Samplename: 	

1525.19	0.000000633504
1524.61	0.000000735924
1515.4	0.000000863525
1505.52	0.000000934831
1495.48	0.000000981319
1485.39	0.0000010318
1475.03	0.00000104209
1464.16	0.00000107659
1453.64	0.00000108579
1443.01	0.0000011284
1432.1	0.0000011393
1421.31	0.00000113894
1410.19	0.00000115782
1399.36	0.00000116121
1388.09	0.00000118506
1376.77	0.00000123749
1365.68	0.00000124984
1354.39	0.00000126183
1342.94	0.00000128773
1331.79	0.00000128507
1320.34	0.00000131606
1308.75	0.00000133955
1297.46	0.00000133193
1286.08	0.00000138592
1274.47	0.0000013979
1263.07	0.00000138967
1251.46	0.00000142599
1239.77	0.00000143688
1228.51	0.00000146255
1217.01	0.00000147877
1205	0.00000147151
1193.49	0.00000147465
1181.61	0.00000153506
1169.84	0.00000155564
1158.26	0.0000015916
1146.44	0.00000160988
1134.57	0.00000163373
1122.82	0.00000166617
1111.13	0.0000016836
1099.15	0.00000174789
1087.36	0.00000178082
1075.61	0.00000179292
1063.94	0.000001779
1051.81	0.00000181956
1039.94	0.00000187319
1028.03	0.0000019014
1016.22	0.00000195503
1004.23	0.00000196652
992.45	0.00000203068
980.35	0.00000209896
968.51	0.00000212572
956.47	0.00000218019
944.81	0.00000224108
932.9	0.00000231675
920.74	0.00000237413
908.59	0.00000247232
896.45	0.0000025193
884.81	0.00000263407
872.53	0.00000273649
860.53	0.00000288503
848.59	0.00000301869
836.52	0.00000317692
824.33	0.00000338151
812.46	0.00000353478
800.44	0.00000372666
788.14	0.00000384954
776.24	0.00000389845
764.01	0.00000381831
752.01	0.00000354204
740.02	0.0000028199
727.8	0.00000214122
715.6	0.00000128797
703.85	0.000000701782
691.46	0.000000279757
679.34	-0.000000134883
667.32	-0.000000291659
655.09	-0.000000377975
642.98	-0.000000389476
630.72	-0.000000415625
618.73	-0.000000388387
606.84	-0.000000340325
594.58	-0.000000313692
582.21	-0.000000289358
570.44	-0.000000291537
557.83	-0.000000250255
545.7	-0.000000235849
533.45	-0.000000187909
521.29	-0.000000201104
509.09	-0.000000139968
497.1	-0.00000015498
484.62	-0.000000106191
472.65	-0.000000074352
460.28	-0.0000000821
448.09	-0.0000000794366
436.04	-0.0000000486866
423.96	-0.0000000230214
411.71	0.0000000169293
399.32	0.0000000407788
387.26	0.0000000954992
374.95	0.000000105305
362.73	0.000000104216
350.31	0.000000424306
338.19	0.00000028472
325.88	0.00000000833392
313.55	0.000000327577
301.4	0.0000000997364
289.31	-0.000000194204
276.85	-0.000000128104
264.55	0.0000000866627
252.38	-0.0000000795575
240.38	0.00000000845565
227.76	-0.0000000641824
215.66	-0.000000177619
203.22	0.000000226128
189.923	0.000000264142
178.607	-0.0000000404541
166.261	-0.000000178224
153.937	-0.000000135973
141.981	0.000000157725
129.5	0.000000565101
117.275	0.000000547668
104.976	0.000000198887
92.455	0.000000235448
80.411	0.000000197434
67.946	0.000000292348
55.437	0.000000177822
43.155	0.000000314139
31.03	0.000000325277
17.7372	0.000000188234
6.2465	0.000000221889
-5.9171	-0.0000000948115
-18.4911	-0.000000150379
-30.0984	-0.000000529426
-43.143	-0.00000130761
-55.425	-0.00000112118
-67.661	-0.000000903993
-80.047	-0.000000722883
-92.326	-0.000000829418
-104.642	-0.000000791283
-117.17	-0.0000008638
-129.366	-0.000000754238
-141.671	-0.000000726878
-153.866	-0.000000552669
-166.307	-0.000000610416
-178.577	-0.000000599399
-191.053	-0.000000659205
-203.311	-0.000000578214
-215.58	-0.000000609569
-227.558	-0.000000535479
-240.184	-0.000000670461
-252.5	-0.000000122535
-264.842	0.00000033278
-277.174	0.000000185206
-289.555	0.000000372247
-302.49	0.000000514374
-313.82	0.000000573332
-326.3	0.000000546093
-338.38	0.000000564978
-350.73	0.000000382902
-363.19	0.000000590646
-375.34	0.000000820665
-387.71	0.000000597546
-399.87	0.000000765824
-412.31	0.00000081788
-424.71	0.000000802505
-437.22	0.000000812795
-449.74	0.000000835554
-461.95	0.00000149353
-474.3	0.000000895845
-486.72	0.00000151326
-498.88	0.00000101594
-511.21	0.00000121969
-523.64	-0.0000000132152
-535.82	-0.000000817191
-548.06	-0.00000141064
-560.6	-0.0000015179
-572.82	-0.00000209973
-585.19	-0.00000109806
-597.5	-0.00000214549
-609.65	-0.00000211692
-622.04	-0.00000174647
-634.43	-0.00000119285
-646.55	-0.00000192152
-659.06	-0.00000142662
-671.27	-0.00000264184
-683.5	-0.00000218786
-695.92	-0.00000305697
-708.26	-0.00000390767
-720.34	-0.00000392511
-732.77	-0.0000047832
-744.96	-0.00000494191
-757.32	-0.00000503682
-769.59	-0.00000499869
-781.76	-0.00000469688
-794.2	-0.00000460184
-806.5	-0.00000449809
-818.58	-0.00000442364
-830.81	-0.00000407704
-842.98	-0.00000398781
-855.25	-0.00000430827
-867.75	-0.00000379811
-879.78	-0.00000336677
-892.33	-0.00000369037
-904.38	-0.00000238555
-916.76	-0.00000319292
-928.93	-0.00000282864
-941.21	-0.00000248894
-953.3	-0.00000224839
-965.52	-0.0000027514
-977.95	-0.00000303348
-990.44	-0.00000250298
-1002.43	-0.0000020283
-1014.9	-0.00000223786
-1027.14	-0.00000271739
-1039.21	-0.00000222285
-1051.41	-0.00000246037
-1063.79	-0.00000186123
-1076.13	-0.00000273324
-1088.61	-0.0000021197
-1100.69	-0.00000241158
-1113.03	-0.00000182564
-1125.34	-0.00000173956
-1137.5	-0.00000222466
-1149.69	-0.00000185058
-1162.05	-0.00000191486
-1174.15	-0.00000181741
-1186.12	-0.00000192297
-1198.7	-0.00000188157
-1210.77	-0.00000176898
-1223.23	-0.00000194622
-1235.36	-0.00000184404
-1247.29	-0.00000175688
-1259.62	-0.00000171572
-1271.86	-0.00000171705
-1284	-0.00000168824
-1296.37	-0.00000165991
-1308.36	-0.00000159514
-1320.48	-0.00000159865
-1332.79	-0.00000165192
-1345.04	-0.00000164598
-1357.03	-0.00000165688
-1369.43	-0.00000168412
-1381.29	-0.00000170676
-1393.63	-0.00000169078
-1406.04	-0.00000166233
-1418.13	-0.00000176099
-1430.4	-0.00000172879
-1442.44	-0.00000179537
-1454.66	-0.00000181971
-1467.13	-0.00000186837
-1479.37	-0.00000189343
