Date/time start measurement:  2/24/2022 - 9:29 AM
Frequency(GHz):4.000000E+0
Power(dBm):1.800000E+1
Time between measurements:1.000000E+0
Samplename: 	

96.819	0.00000227643
97.371	0.00000251075
100.893	0.00000314517
104.743	0.00000324295
108.65	0.00000332491
112.497	0.00000354898
116.501	0.00000355207
120.385	0.00000364064
124.43	0.00000354926
128.275	0.0000036738
132.192	0.00000397996
136.121	0.00000405887
140.037	0.00000390436
144.017	0.00000386154
148.145	0.00000387602
152.234	0.00000387121
156.243	0.00000390365
160.093	0.00000386783
164.144	0.00000390469
168.165	0.00000395814
172.027	0.00000389202
175.965	0.00000389815
180.116	0.00000416078
184.194	0.00000412924
188.189	0.00000414756
192.122	0.00000388388
196.2	0.00000423739
200.214	0.00000408631
203.945	0.00000413272
208.008	0.00000420818
212.259	0.00000404046
216.387	0.00000433788
220.22	0.00000435531
224.256	0.00000408292
228.237	0.00000423082
232.345	0.00000453334
236.279	0.00000436042
240.147	0.00000431713
244.339	0.00000453652
248.376	0.0000042455
252.312	0.00000461314
256.378	0.00000461413
260.346	0.00000427434
264.417	0.00000404693
268.328	0.00000409728
272.308	0.00000404351
276.299	0.0000040895
280.461	0.00000421952
284.362	0.00000485592
288.441	0.00000485395
292.416	0.0000051457
296.447	0.00000550418
300.053	0.00000567736
304.44	0.00000619619
308.46	0.0000066932
312.54	0.00000749411
316.42	0.00000952693
320.44	0.0000132685
324.56	0.0000197339
328.56	0.0000261645
332.48	0.0000231457
336.56	0.0000130433
340.59	0.00000697838
344.62	0.0000047381
348.57	0.00000374286
352.65	0.00000326202
356.65	0.00000308263
360.74	0.00000295552
364.67	0.00000312568
368.8	0.00000290173
372.78	0.00000313728
376.95	0.00000290151
380.81	0.00000272992
384.85	0.00000290918
388.9	0.00000281865
393.04	0.00000290577
396.95	0.00000288854
400.96	0.00000292672
405.03	0.00000277189
409.17	0.00000280123
413.1	0.0000028202
417.11	0.00000281968
421.1	0.00000298483
425.2	0.00000291832
429.05	0.00000298155
433.09	0.00000298497
437.24	0.00000280607
441.28	0.00000296257
445.28	0.00000300753
449.27	0.00000279286
453.25	0.00000281836
457.36	0.00000274525
461.23	0.0000025643
465.28	0.0000027011
469.46	0.00000257292
473.51	0.00000258824
477.52	0.00000254661
481.61	0.00000252929
485.54	0.00000208929
489.61	0.00000234805
493.52	0.00000240569
497.51	0.00000241159
501.58	0.00000237788
505.71	0.00000234958
509.72	0.00000228113
513.66	0.00000222018
517.76	0.00000219959
521.73	0.0000018883
525.63	0.00000200315
529.58	0.00000204314
533.61	0.00000196508
537.69	0.00000182219
541.86	0.00000181091
545.84	0.00000175115
