Date/time start measurement:  11/15/2021 - 11:16 AM
Frequency(GHz):8.000000E+0
Power(dBm):1.500000E+1
Time between measurements:1.000000E+0
Samplename: 	

1218.56	0.00000395608
1217.91	0.00000398344
1210.13	0.00000414735
1202.04	0.00000422083
1193.62	0.00000428657
1185.13	0.00000434589
1176.36	0.00000436211
1167.87	0.00000445303
1158.89	0.00000448741
1149.85	0.00000444043
1140.93	0.00000445992
1131.72	0.00000455096
1122.7	0.00000460811
1113.26	0.00000464563
1104.12	0.00000462747
1094.84	0.00000463316
1085.39	0.0000046529
1076.29	0.00000468062
1066.76	0.00000474504
1057.28	0.00000477603
1047.64	0.00000482579
1038.24	0.00000484661
1028.81	0.00000492326
1019.28	0.00000496829
1009.72	0.00000497168
1000.14	0.00000508692
990.55	0.00000506585
980.87	0.00000505714
971.36	0.00000511174
961.56	0.00000515617
951.85	0.00000525205
942.22	0.00000524888
932.61	0.00000526934
922.81	0.00000528084
913.12	0.00000536281
903.36	0.00000542322
893.53	0.0000054122
883.81	0.00000550966
874.14	0.00000555094
864.2	0.00000561026
854.43	0.00000565796
844.51	0.00000569889
834.81	0.00000573461
825.09	0.00000578025
815.03	0.0000058064
805.33	0.00000583703
795.57	0.00000585458
785.51	0.00000591839
775.8	0.00000598473
765.9	0.00000608896
755.95	0.00000600095
746.09	0.00000608533
736.11	0.00000618738
726.26	0.0000063122
716.21	0.00000636026
706.19	0.00000651679
696.3	0.00000666606
686.31	0.00000682236
676.49	0.00000699451
666.53	0.00000717162
656.51	0.00000737114
646.45	0.00000761871
636.62	0.00000785236
626.72	0.00000825333
616.5	0.00000845247
606.51	0.0000088015
596.58	0.00000919338
586.53	0.00000957182
576.54	0.0000101021
566.53	0.0000106161
556.54	0.0000112656
546.46	0.0000119548
536.37	0.000012741
526.42	0.0000134166
516.38	0.0000139544
506.19	0.0000140431
496.25	0.0000137155
486.08	0.0000121684
476.11	0.00000974165
466.09	0.00000715406
455.94	0.0000035039
445.85	0.00000116182
435.6	-0.00000092772
425.78	-0.00000200142
415.56	-0.00000270891
405.41	-0.00000315091
395.22	-0.00000326894
385.27	-0.00000328467
375.24	-0.00000316567
365.12	-0.00000295478
355.09	-0.00000279062
344.82	-0.00000264874
334.52	-0.00000248433
324.41	-0.00000232477
314.46	-0.00000196473
304.37	-0.00000182915
294.09	-0.00000170833
284	-0.00000163714
273.76	-0.00000150773
263.62	-0.00000126645
253.37	-0.00000117263
243.35	-0.00000104927
233.02	-0.000000880021
222.88	-0.000000849755
212.8	-0.000000733536
202.64	-0.000000628091
191.847	-0.000000587656
182.234	-0.000000539473
172.002	-0.000000480395
161.888	-0.000000550368
151.77	-0.000000462235
141.621	-0.000000486206
131.466	-0.000000475794
120.941	-0.000000428338
110.963	-0.000000461751
100.827	-0.00000046611
90.483	-0.000000486328
80.346	-0.000000478216
70.048	-0.000000444683
60.012	-0.000000452915
49.699	-0.0000004011
39.33	-0.000000300134
29.198	-0.000000132462
18.1564	0.0000000577279
8.7766	0.000000287142
-1.49768	0.000000457235
-12.3905	0.000000532052
-21.9919	0.000000452269
-32.997	-0.000000704116
-42.29	-0.00000284522
-52.665	-0.00000300054
-62.908	-0.00000221194
-73.142	-0.00000180699
-83.432	-0.00000153872
-93.578	-0.00000137904
-103.86	-0.00000123546
-114.075	-0.00000103353
-124.197	-0.000000884985
-134.621	-0.000000738985
-144.626	-0.000000596494
-154.832	-0.00000041042
-165.206	-0.000000363811
-175.562	-0.000000257398
-185.783	-0.00000019154
-195.658	-0.000000100986
-206.125	0.0000000302459
-216.341	0.000000127459
-226.462	0.000000266681
-236.801	0.00000045348
-247.106	0.000000592946
-257.271	0.000000751175
-267.621	0.00000087127
-277.949	0.00000101884
-288.066	0.00000118107
-298.412	0.0000013094
-309.42	0.00000146169
-318.8	0.00000164534
-328.96	0.00000182185
-339.21	0.00000196519
-349.55	0.00000208565
-359.56	0.00000213722
-369.82	0.00000216712
-380.23	0.00000201701
-390.52	0.00000153021
-400.77	0.000000896328
-410.89	-0.000000494922
-421.17	-0.00000233749
-431.31	-0.00000452254
-441.69	-0.00000840138
-452.1	-0.0000111295
-462.14	-0.0000139679
-472.42	-0.0000151918
-482.82	-0.0000154732
-493	-0.0000151475
-503.15	-0.0000144546
-513.35	-0.0000135997
-523.63	-0.0000127756
-533.82	-0.0000119198
-544.06	-0.0000112437
-554.45	-0.0000104953
-564.64	-0.00000994627
-574.76	-0.00000956057
-585.09	-0.00000911324
-595.44	-0.00000880381
-605.51	-0.00000845817
-615.63	-0.00000810467
-625.96	-0.00000779547
-636.24	-0.00000758264
-646.39	-0.00000738253
-656.68	-0.00000714984
-666.9	-0.00000700747
-677.13	-0.00000680457
-687.3	-0.00000652009
-697.65	-0.00000652093
-707.88	-0.00000638062
-717.95	-0.00000631694
-728.18	-0.00000625544
-738.48	-0.00000611973
-748.72	-0.00000601949
-758.93	-0.00000576175
-769.02	-0.00000587894
-779.11	-0.00000581345
-789.41	-0.00000574395
-799.65	-0.00000566731
-809.88	-0.00000561501
-819.97	-0.00000555291
-830.05	-0.00000553463
-840.31	-0.00000548281
-850.76	-0.00000543063
-860.76	-0.00000536696
-871.12	-0.0000053241
-881.35	-0.00000524868
-891.45	-0.00000520534
-901.69	-0.00000516623
-911.97	-0.00000509602
-922.19	-0.00000508004
-932.31	-0.00000501805
-942.57	-0.00000498004
-952.87	-0.00000491479
-962.89	-0.00000484699
-973.11	-0.00000483029
-983.14	-0.00000478719
-993.42	-0.00000477714
-1003.63	-0.00000469712
-1013.77	-0.00000466855
-1024	-0.0000046401
-1034.09	-0.000004643
-1044.23	-0.00000465196
-1054.45	-0.0000046499
-1064.65	-0.00000463598
-1074.87	-0.00000458683
-1084.88	-0.00000464676
-1095.1	-0.00000460536
-1105.24	-0.00000461819
-1115.48	-0.00000462606
-1125.59	-0.00000461843
-1135.71	-0.00000459228
-1145.81	-0.00000457182
-1156.1	-0.00000456262
-1166.18	-0.00000460475
-1176.29	-0.00000459809
