Date/time start measurement:  11/15/2021 - 11:05 AM
Frequency(GHz):8.000000E+0
Power(dBm):1.200000E+1
Time between measurements:1.000000E+0
Samplename: 	

1218.59	0.00000182985
1218.13	0.00000196629
1210.28	0.00000207355
1202.13	0.00000212767
1193.82	0.0000020928
1185.24	0.00000214376
1176.5	0.00000218165
1167.79	0.0000021888
1159.01	0.00000225187
1149.96	0.00000225538
1140.94	0.00000232451
1131.72	0.00000236543
1122.7	0.00000239666
1113.49	0.00000242765
1104.24	0.00000239751
1094.82	0.00000244206
1085.55	0.00000245732
1076.34	0.00000245853
1066.88	0.00000247959
1057.43	0.00000248129
1047.83	0.00000249001
1038.71	0.00000250648
1029.21	0.00000250309
1019.45	0.00000252439
1009.86	0.00000249183
1000.36	0.00000254171
990.64	0.00000257851
981.02	0.00000256943
971.41	0.00000257887
961.72	0.0000025664
951.95	0.00000259399
942.35	0.00000262813
932.78	0.00000265948
922.95	0.0000026613
913.24	0.00000265912
903.46	0.0000027366
893.69	0.00000276832
883.85	0.0000028079
874.3	0.00000285403
864.41	0.00000287655
854.57	0.00000291432
844.58	0.00000297618
834.96	0.00000301492
825.16	0.00000306177
815.19	0.00000305039
805.55	0.00000310887
795.63	0.00000313369
785.63	0.00000318017
775.85	0.0000032257
766.07	0.00000326868
756.09	0.00000330378
746.07	0.00000327811
736.29	0.00000332266
726.46	0.00000335584
716.37	0.00000344639
706.32	0.00000359385
696.44	0.00000362169
686.52	0.00000366539
676.9	0.00000376733
666.77	0.00000379735
656.62	0.00000392811
646.7	0.0000040459
636.71	0.00000414372
626.77	0.00000427955
616.63	0.00000443185
606.63	0.00000458027
596.67	0.00000475121
586.67	0.00000497797
576.63	0.00000528401
566.78	0.00000554526
556.61	0.0000058398
546.63	0.00000623858
536.45	0.00000654995
526.65	0.00000689026
516.45	0.00000717657
506.34	0.00000729485
496.38	0.00000699327
486.2	0.0000063531
476.29	0.00000488706
466.1	0.00000348454
456.04	0.00000171072
446	0.000000518857
435.96	-0.000000291538
425.93	-0.00000104176
415.61	-0.00000136464
405.66	-0.00000153643
395.48	-0.00000163534
385.48	-0.00000161088
375.44	-0.00000158037
365.26	-0.0000014949
355.21	-0.00000139793
344.87	-0.00000130483
334.72	-0.00000122481
324.61	-0.00000114685
314.7	-0.00000104019
304.47	-0.00000095375
294.31	-0.000000875543
284.11	-0.000000782688
273.97	-0.000000719009
263.83	-0.000000650366
253.49	-0.000000549279
243.48	-0.000000505818
233.21	-0.000000461872
223	-0.000000444198
212.99	-0.000000324467
202.83	-0.000000242024
192.011	-0.000000207036
182.373	-0.000000203647
172.275	-0.000000195172
162.082	-0.000000212847
151.898	-0.000000228222
141.7	-0.000000233428
131.492	-0.000000242871
121.202	-0.000000261152
111.14	-0.000000221322
100.957	-0.000000264541
90.696	-0.000000258609
80.442	-0.000000288027
70.231	-0.000000277737
60.104	-0.000000259698
49.866	-0.000000228343
39.51	-0.000000150137
29.361	-0.0000000638195
19.951	0.0000000438053
8.9342	0.000000150583
-1.28587	0.000000243317
-12.2127	0.000000313897
-21.816	0.000000227942
-32.768	-0.000000188877
-42.236	-0.00000142795
-52.395	-0.00000143049
-62.74	-0.00000112905
-72.869	-0.000000887165
-83.25	-0.000000800121
-93.379	-0.000000665863
-103.621	-0.000000611263
-113.846	-0.000000528215
-124.137	-0.000000464657
-134.43	-0.00000035328
-144.536	-0.000000260667
-154.83	-0.000000184882
-164.987	-0.000000125804
-175.426	-0.0000000657565
-185.591	0.0000000216508
-195.738	0.0000000947726
-206.049	0.000000149614
-216.188	0.000000209298
-226.509	0.000000205061
-236.864	0.000000244649
-246.998	0.000000286658
-257.16	0.000000344889
-267.521	0.000000434233
-277.893	0.000000468131
-288.013	0.000000519704
-298.238	0.000000602511
-309.17	0.000000684229
-318.72	0.000000813524
-328.75	0.000000879018
-339.17	0.000000959645
-349.48	0.00000102466
-359.49	0.0000010548
-369.81	0.00000101679
-380.21	0.000000943423
-390.39	0.000000747786
-400.62	0.000000388713
-410.72	-0.000000138394
-421.1	-0.00000122529
-431.34	-0.00000238192
-441.53	-0.00000417268
-451.98	-0.00000560787
-462.03	-0.00000673048
-472.33	-0.00000760044
-482.6	-0.00000773082
-492.72	-0.00000752391
-502.97	-0.00000716774
-513.17	-0.00000677127
-523.47	-0.00000629562
-533.77	-0.00000593631
-544.03	-0.00000557348
-554.32	-0.00000524831
-564.53	-0.00000501719
-574.64	-0.00000472797
-584.95	-0.00000450632
-595.25	-0.00000432484
-605.45	-0.00000415717
-615.52	-0.00000403611
-625.84	-0.00000387558
-636.04	-0.00000374968
-646.26	-0.00000367135
-656.59	-0.00000351265
-666.68	-0.00000340115
-676.91	-0.00000328178
-687.23	-0.00000320575
-697.58	-0.00000315466
-707.69	-0.00000309692
-717.81	-0.00000301459
-728.11	-0.00000298215
-738.4	-0.00000293578
-748.57	-0.00000290128
-758.89	-0.00000288167
-768.94	-0.00000285455
-779.15	-0.00000280491
-789.27	-0.00000276351
-799.5	-0.00000276508
-809.84	-0.00000271799
-819.79	-0.0000026416
-829.92	-0.0000026301
-840.23	-0.0000025956
-850.63	-0.00000261981
-860.91	-0.00000249403
-871.18	-0.00000250662
-881.28	-0.00000244742
-891.4	-0.00000233967
-901.62	-0.00000234572
-911.87	-0.000002322
-922.22	-0.00000231001
-932.15	-0.00000229911
-942.38	-0.00000224621
-952.72	-0.00000223979
-962.76	-0.00000225202
-972.98	-0.00000222757
-983.15	-0.00000218544
-993.41	-0.00000218725
-1003.49	-0.00000219464
-1013.77	-0.00000218096
-1023.93	-0.00000218349
-1034.02	-0.00000213809
-1044.15	-0.00000212357
-1054.33	-0.00000214717
-1064.54	-0.0000021732
-1074.73	-0.00000219136
-1084.78	-0.00000218616
-1094.96	-0.000002195
-1105.2	-0.00000218592
-1115.33	-0.00000216062
-1125.51	-0.00000217418
-1135.54	-0.00000215227
-1145.75	-0.00000217358
-1156.08	-0.00000214417
-1166.14	-0.00000215542
-1176.31	-0.00000216789
