Date/time start measurement:  11/12/2021 - 12:39 PM
Frequency(GHz):8.000000E+0
Power(dBm):6.000000E+0
Time between measurements:1.000000E+0
Samplename: 	

-1189.91	-0.00000454943
-1189.24	-0.00000437595
-1182.87	-0.00000422014
-1176.36	-0.00000413176
-1169.92	-0.00000409375
-1163.06	-0.00000405525
-1156.34	-0.00000401482
-1149.38	-0.00000394739
-1142.58	-0.00000391446
-1135.35	-0.00000387996
-1128.2	-0.00000387814
-1120.93	-0.00000387705
-1113.84	-0.00000387802
-1106.59	-0.00000386434
-1099.14	-0.00000382463
-1091.8	-0.00000376531
-1084.39	-0.00000377873
-1077.13	-0.00000385936
-1069.6	-0.0000038504
-1062.17	-0.00000381977
-1054.75	-0.00000378332
-1047.37	-0.00000375596
-1039.7	-0.00000376674
-1032.06	-0.00000377182
-1024.63	-0.00000380051
-1017.1	-0.00000380549
-1009.48	-0.00000377982
-1002.14	-0.00000375295
-994.35	-0.00000373055
-986.72	-0.00000373056
-978.99	-0.00000371422
-971.41	-0.00000373637
-963.72	-0.00000373758
-956.09	-0.00000372245
-948.32	-0.00000367837
-940.62	-0.00000368527
-933	-0.00000374157
-925.22	-0.00000377244
-917.46	-0.0000037935
-909.81	-0.00000381469
-901.99	-0.00000379931
-894.26	-0.00000380416
-886.31	-0.0000038044
-878.79	-0.00000380865
-871.06	-0.00000380066
-863.16	-0.00000378807
-855.22	-0.00000380175
-847.54	-0.00000379218
-839.75	-0.00000380853
-831.94	-0.00000377887
-824.06	-0.00000378407
-816.3	-0.00000382644
-808.4	-0.0000038716
-800.58	-0.0000039015
-792.81	-0.00000389266
-784.8	-0.00000396554
-777.08	-0.00000397486
-769.21	-0.00000401251
-761.28	-0.00000400804
-753.26	-0.00000402922
-745.54	-0.00000405924
-737.62	-0.00000408079
-729.75	-0.00000406433
-721.65	-0.00000414084
-713.86	-0.00000415997
-705.96	-0.00000416857
-698.07	-0.00000415077
-689.99	-0.00000422256
-681.99	-0.00000431069
-674.21	-0.00000433829
-666.3	-0.00000438563
-658.21	-0.00000445766
-650.21	-0.00000450245
-642.43	-0.0000045734
-634.56	-0.000004632
-626.37	-0.00000472849
-618.34	-0.00000474459
-610.64	-0.00000481614
-602.53	-0.000004878
-594.42	-0.00000492159
-586.39	-0.00000494713
-578.44	-0.00000495258
-570.66	-0.00000489458
-562.7	-0.0000048487
-554.57	-0.00000477703
-546.48	-0.00000468514
-538.61	-0.0000045769
-530.67	-0.00000447909
-522.54	-0.00000437425
-514.41	-0.00000429144
-506.54	-0.00000420052
-498.52	-0.00000405778
-490.37	-0.00000394423
-482.41	-0.00000385621
-474.35	-0.00000364375
-466.46	-0.00000338771
-458.28	-0.00000329062
-450.25	-0.0000031077
-442.16	-0.00000299886
-434.18	-0.00000297574
-425.97	-0.00000291303
-417.84	-0.00000291133
-409.93	-0.00000286339
-401.95	-0.00000288325
-393.76	-0.00000287804
-385.73	-0.00000283772
-377.69	-0.00000279632
-369.6	-0.00000268531
-361.44	-0.00000260746
-353.4	-0.00000261292
-345.34	-0.0000026749
-337.21	-0.00000273507
-329.15	-0.00000281715
-321.09	-0.00000283592
-312.89	-0.00000284136
-304.92	-0.00000287381
-296.79	-0.0000029439
-288.73	-0.00000298349
-280.81	-0.00000302902
-272.55	-0.00000306401
-264.43	-0.00000306134
-256.29	-0.00000312586
-248.12	-0.00000315867
-240.06	-0.00000312744
-231.94	-0.00000319644
-223.74	-0.0000031956
-215.65	-0.00000324814
-207.5	-0.00000325359
-199.97	-0.0000032531
-191.462	-0.00000326388
-183.213	-0.00000316001
-175.371	-0.00000317986
-167.042	-0.00000320637
-158.879	-0.00000320928
-150.676	-0.00000329765
-142.499	-0.00000329693
-134.453	-0.00000328215
-126.158	-0.00000330793
-118.08	-0.0000033135
-109.915	-0.00000327827
-101.799	-0.0000032537
-93.611	-0.00000328323
-85.503	-0.00000328941
-77.414	-0.00000337427
-69.198	-0.0000034279
-60.894	-0.00000342742
-52.762	-0.00000343444
-44.637	-0.00000341168
-36.526	-0.0000033974
-28.217	-0.00000338457
-20.043	-0.00000333844
-11.3777	-0.00000329317
-3.9604	-0.00000313808
4.2595	-0.00000307961
12.6093	-0.00000189852
20.7675	-0.00000184647
28.8507	-0.00000175204
37.601	-0.00000167504
45.331	-0.00000160579
53.564	-0.00000155265
61.288	-0.00000146427
69.657	-0.00000146948
78.013	-0.00000151899
86.111	-0.0000015409
94.141	-0.00000162129
102.341	-0.00000162468
110.633	-0.00000169974
118.993	-0.00000168243
127.032	-0.000001703
135.184	-0.00000173836
143.48	-0.00000175881
151.599	-0.00000182274
159.853	-0.00000186026
167.79	-0.00000192709
176.251	-0.00000190191
184.345	-0.00000189913
192.59	-0.00000198399
200.699	-0.000002003
208.904	-0.00000195857
217.158	-0.00000185639
225.407	-0.00000181559
233.593	-0.00000182613
241.87	-0.00000179066
249.931	-0.00000188726
258.135	-0.00000193835
266.272	-0.00000196123
274.415	-0.00000196753
282.693	-0.00000196475
291.023	-0.00000191596
299.122	-0.00000189356
307.84	-0.00000184332
315.51	-0.00000179659
323.71	-0.00000184671
331.89	-0.00000186099
340.11	-0.00000187141
348.24	-0.00000184549
356.42	-0.00000185578
364.61	-0.00000170542
372.89	-0.00000166172
381.01	-0.00000160433
389.29	-0.00000146656
397.51	-0.00000138848
405.64	-0.00000132178
414	-0.0000012857
422.14	-0.00000132311
430.24	-0.00000137953
438.53	-0.00000138558
446.83	-0.00000133134
454.87	-0.00000135422
462.88	-0.00000133074
471.4	-0.00000133606
479.64	-0.0000012357
487.77	-0.0000011483
495.97	-0.00000105653
504.14	-0.000000996122
512.53	-0.000000953629
520.74	-0.00000087167
528.85	-0.000000812228
537	-0.000000707388
545.34	-0.000000577367
553.47	-0.000000554123
561.59	-0.000000471921
569.74	-0.00000052192
578.05	-0.000000430155
586.42	-0.000000428702
594.33	-0.000000466716
602.64	-0.00000051502
610.86	-0.000000579788
619.33	-0.000000657874
627.39	-0.000000705693
635.49	-0.000000764409
643.62	-0.000000847095
651.92	-0.000000899636
659.98	-0.000000910047
667.96	-0.000000974331
676.43	-0.00000103414
684.76	-0.00000101828
693.08	-0.00000108002
701.11	-0.00000111936
709.32	-0.00000114902
717.49	-0.00000125532
725.59	-0.00000127323
734.07	-0.0000012989
742.14	-0.0000013035
750.57	-0.00000133885
758.76	-0.00000141391
766.96	-0.00000145616
775.02	-0.00000145338
783.09	-0.0000014857
791.48	-0.00000152323
799.62	-0.00000155761
807.72	-0.000001634
815.98	-0.0000016449
824.33	-0.00000169647
832.5	-0.00000173243
840.37	-0.00000173618
848.65	-0.00000175361
857.09	-0.00000175289
865.36	-0.00000176305
873.53	-0.00000178702
881.46	-0.00000179768
889.84	-0.00000178775
897.72	-0.00000177952
905.89	-0.00000177601
914.07	-0.00000174647
922.57	-0.00000174429
930.73	-0.00000174054
939.09	-0.00000176378
947.18	-0.00000177444
955.37	-0.00000173025
963.53	-0.0000017024
971.68	-0.00000169272
979.93	-0.00000169042
988.11	-0.00000168461
996.3	-0.00000168073
1004.38	-0.00000170773
1012.64	-0.00000172674
1020.84	-0.00000175821
1028.93	-0.00000173255
1037.26	-0.00000166402
1045.33	-0.00000155688
1053.63	-0.00000148824
1061.71	-0.00000143715
1069.85	-0.00000139999
1077.96	-0.00000137614
1086.03	-0.00000140883
1094.08	-0.00000142904
1102.46	-0.00000143534
1110.59	-0.00000149478
1118.92	-0.00000150507
1126.9	-0.00000157299
1135.12	-0.00000152383
1143.3	-0.00000150737
1151.46	-0.00000152977
1159.7	-0.00000150991
1167.82	-0.00000154563
1175.95	-0.00000158182
1184.09	-0.00000160918
1192.32	-0.00000169526
1200.35	-0.00000169599
1208.52	-0.00000170083
