Date/time start measurement:  11/15/2021 - 10:41 AM
Frequency(GHz):8.000000E+0
Power(dBm):1.500000E+1
Time between measurements:1.000000E+0
Samplename: 	

-1189.89	-0.00000354811
-1189.15	-0.00000368202
-1181.46	-0.0000035997
-1173.39	-0.00000357282
-1164.96	-0.0000035319
-1156.47	-0.00000344619
-1147.84	-0.00000342949
-1139.28	-0.00000338191
-1130.16	-0.00000342632
-1121.26	-0.00000341942
-1112.28	-0.0000034285
-1103.21	-0.00000343104
-1094.11	-0.00000340162
-1085.02	-0.00000344242
-1075.89	-0.00000339702
-1066.54	-0.00000342498
-1057.23	-0.00000342329
-1047.98	-0.00000344643
-1038.5	-0.00000344812
-1029.16	-0.00000345453
-1019.77	-0.00000347657
-1010.27	-0.00000351906
-1000.86	-0.00000348528
-991.25	-0.000003494
-981.84	-0.00000348274
-972.17	-0.00000355538
-962.54	-0.00000354606
-953.13	-0.00000361446
-943.55	-0.00000367487
-933.88	-0.00000370985
-924.09	-0.00000376494
-914.53	-0.00000380707
-904.91	-0.00000382305
-895.14	-0.00000386991
-885.49	-0.00000391507
-875.75	-0.00000398589
-865.91	-0.0000040365
-856.2	-0.00000412063
-846.57	-0.00000415562
-836.79	-0.00000421591
-826.92	-0.00000431566
-817.17	-0.0000044044
-807.26	-0.00000447496
-797.68	-0.00000457024
-787.86	-0.00000468114
-778.07	-0.00000479954
-768.12	-0.00000485148
-758.18	-0.00000496116
-748.52	-0.00000508295
-738.66	-0.000005166
-728.64	-0.00000526176
-718.67	-0.00000541286
-709.07	-0.00000550862
-699.1	-0.00000570049
-689.08	-0.00000586647
-679.18	-0.00000603378
-669.16	-0.00000616017
-659.23	-0.00000630653
-649.32	-0.00000633316
-639.46	-0.00000635459
-629.43	-0.00000614878
-619.42	-0.00000596271
-609.42	-0.00000568608
-599.5	-0.00000511757
-589.46	-0.00000482618
-579.52	-0.00000414157
-569.62	-0.00000363008
-559.47	-0.00000312223
-549.65	-0.00000265226
-539.58	-0.00000221753
-529.51	-0.00000197068
-519.5	-0.00000172807
-509.47	-0.0000014357
-499.58	-0.000000997939
-489.44	-0.00000149575
-479.4	-0.00000155858
-469.32	-0.000000673731
-459.28	0.00000161532
-449.28	0.0000025814
-439.28	0.00000222027
-429.07	0.00000291917
-418.9	0.00000309701
-408.77	0.00000314822
-399.01	0.00000218613
-388.81	0.00000214364
-378.73	0.00000184934
-368.59	0.0000017537
-358.58	0.00000150964
-348.46	0.00000119378
-338.35	0.00000117647
-328.28	0.00000127199
-318.39	0.00000169716
-307.84	0.00000156012
-297.78	0.00000132635
-287.78	0.00000125783
-277.6	0.00000129681
-267.44	0.00000128833
-257.25	0.00000181471
-247.09	0.00000193929
-237.05	0.0000026337
-226.89	0.00000285719
-216.69	0.00000226289
-206.4	-0.00000267732
-195.772	-0.00000051163
-186.389	-0.000000706661
-176.164	-0.00000127263
-165.962	-0.00000114212
-155.918	-0.00000200033
-145.609	-0.00000183726
-135.751	-0.00000032592
-125.215	0.00000115577
-115.045	0.000000522246
-104.807	0.000000485079
-94.569	0.000000499728
-84.563	0.000000375517
-74.407	0.000000311838
-64.021	0.000000456266
-53.772	0.000000369948
-43.56	0.00000035869
-33.427	0.000000233269
-23.186	-0.0000000765311
-12.3989	-0.0000000404543
-2.7899	-0.00000020401
7.5686	-0.00000027471
17.5873	-0.000000264299
27.9076	-0.000000271684
38.86	0.0000000353311
48.557	0.000000510382
58.686	0.00000138276
68.782	0.0000010249
79.068	0.000000772968
89.35	0.000000633382
99.537	0.000000582051
109.743	0.000000474185
119.94	0.000000453241
130.073	0.000000425517
140.344	0.000000339926
150.757	0.000000346704
161.037	0.000000305179
170.957	0.000000253969
181.288	0.000000258327
191.613	0.000000203728
201.813	0.000000165472
212.124	0.000000135691
222.31	0.0000000429572
232.706	-0.0000000290748
242.871	-0.000000207884
253.294	-0.000000243718
263.493	-0.000000280279
273.51	-0.00000036018
283.799	-0.000000386935
294.119	-0.000000470226
304.98	-0.000000534268
314.52	-0.000000732447
325.12	-0.000000903993
335.12	-0.000000909198
344.96	-0.00000101864
355.3	-0.000000531968
365.66	-0.00000047858
375.76	0.000000532657
386.04	0.000000829624
396.59	0.000000342467
406.52	0.00000073689
416.81	0.00000101945
427.23	0.000000821392
437.6	0.00000041111
447.91	0.000000277578
458.08	0.000000860859
468.19	0.00000082805
478.68	0.00000112732
488.78	0.00000155842
499.07	0.00000146872
509.43	0.00000203094
519.82	0.00000215358
530.02	0.00000249195
540.2	0.00000300005
550.5	0.00000332331
560.65	0.00000471239
570.9	0.00000528005
581.34	0.00000610026
591.56	0.00000671111
601.65	0.00000717321
611.97	0.00000781374
622.29	0.00000736472
632.62	0.00000697441
642.73	0.00000425968
653.05	0.00000478691
663.28	0.00000515435
673.66	0.00000476743
683.99	0.00000455789
694.06	0.00000430075
704.27	0.00000434591
714.65	0.00000399748
725.01	0.0000042022
735.11	0.00000388755
745.32	0.00000398332
755.67	0.00000388295
765.72	0.00000387399
776.15	0.00000381673
786.48	0.00000355935
796.67	0.00000360341
806.56	0.0000034447
816.71	0.00000336153
827.31	0.00000329083
837.5	0.00000325669
847.54	0.00000317413
857.97	0.00000314217
868.33	0.00000309362
878.53	0.00000306784
888.86	0.00000302801
899.13	0.00000299968
909.27	0.00000296433
919.48	0.00000296106
929.78	0.00000289218
940.11	0.00000285538
950.29	0.0000028032
960.48	0.00000276083
970.73	0.00000276555
981.05	0.0000027187
991.24	0.0000027434
1001.48	0.00000278444
1011.54	0.0000027802
1021.68	0.00000269933
1032.08	0.00000263299
1042.01	0.00000266701
1052.3	0.0000026825
1062.52	0.00000267257
1072.76	0.00000269691
1083.07	0.00000267776
1093.19	0.00000271142
1103.24	0.00000272655
1113.53	0.0000026843
1123.97	0.00000262134
1133.77	0.00000254968
1144.28	0.00000246542
1154.47	0.00000240016
1164.23	0.00000230646
1174.63	0.00000218517
1184.96	0.00000214328
1195.22	0.00000214788
1205.35	0.00000214473
