Date/time start measurement:  11/15/2021 - 10:56 AM
Frequency(GHz):8.000000E+0
Power(dBm):9.000000E+0
Time between measurements:1.000000E+0
Samplename: 	

1218.21	0.0000000199562
1217.54	0.000000187144
1209.8	0.000000268862
1201.69	0.000000318982
1193.39	0.000000360024
1184.72	0.000000410507
1176.07	0.000000423945
1167.5	0.000000474549
1158.74	0.000000469222
1149.93	0.000000502877
1140.69	0.000000532901
1131.7	0.000000559172
1122.45	0.000000625999
1113.18	0.000000659289
1104.03	0.000000623092
1094.67	0.000000616433
1085.34	0.000000638951
1076.2	0.000000648636
1066.78	0.00000066183
1057.24	0.000000658077
1047.75	0.000000668246
1038.31	0.000000635317
1028.83	0.00000065275
1019.21	0.000000648876
1009.86	0.000000650328
1000.14	0.000000647059
990.64	0.000000676114
980.95	0.000000718973
971.47	0.000000725268
961.75	0.000000751054
952.07	0.000000726599
942.3	0.000000777203
932.8	0.000000863279
922.98	0.000000795363
913.33	0.00000081667
903.56	0.000000810859
893.72	0.000000835797
883.91	0.000000863884
874.24	0.000000890034
864.54	0.00000091691
854.63	0.00000096485
844.87	0.000000956255
835.06	0.000000984947
825.27	0.000000975747
815.41	0.00000100274
805.77	0.00000102127
795.85	0.00000107611
785.87	0.0000011117
776.03	0.00000113071
766.2	0.00000115879
756.27	0.00000117308
746.34	0.00000123022
736.43	0.00000124826
726.58	0.00000126521
716.61	0.00000126714
706.64	0.0000013186
696.65	0.00000137513
686.69	0.00000139934
676.87	0.00000147283
666.9	0.00000154135
656.87	0.00000152501
646.89	0.00000162658
636.98	0.00000172561
627.12	0.0000018175
616.91	0.00000185805
606.92	0.00000197815
597.02	0.00000210284
586.93	0.00000223238
576.96	0.00000237414
567.04	0.00000254751
557.02	0.00000272704
546.97	0.00000288612
536.89	0.00000312038
526.92	0.00000328914
516.97	0.00000343465
506.68	0.00000347847
496.77	0.00000341189
486.59	0.00000297509
476.76	0.00000241385
466.66	0.00000148832
456.52	0.000000757711
446.4	0.00000020385
436.26	-0.000000376523
426.39	-0.0000006132
416.12	-0.000000843341
406.05	-0.000000865616
395.88	-0.000000913557
385.91	-0.000000899514
375.87	-0.000000822276
365.7	-0.000000796247
355.77	-0.000000778451
345.5	-0.000000701213
335.3	-0.000000633903
325.12	-0.000000623007
315.18	-0.000000563081
305.06	-0.000000523737
294.82	-0.000000549281
284.74	-0.000000489961
274.52	-0.00000044432
264.46	-0.000000436572
254.29	-0.000000418534
244.1	-0.000000382699
233.94	-0.00000037144
223.61	-0.000000380157
213.69	-0.000000376888
203.56	-0.000000335484
192.758	-0.000000316477
183.149	-0.000000275558
173.063	-0.000000306066
162.918	-0.000000269384
152.749	-0.000000259699
142.634	-0.000000279553
132.353	-0.000000242629
122.196	-0.000000280521
112.059	-0.000000295896
101.999	-0.000000288754
91.774	-0.000000306429
81.54	-0.000000309092
71.317	-0.000000333063
61.257	-0.000000355096
51.023	-0.000000300739
40.688	-0.000000244445
30.559	-0.000000210911
20.194	-0.000000181977
9.467	-0.000000122898
-0.13153	-0.0000000948116
-10.969	-0.0000000751994
-20.6397	-0.0000000772575
-30.0318	-0.0000003419
-41.011	-0.00000088208
-51.284	-0.00000101961
-61.556	-0.000000841283
-71.655	-0.000000708356
-82.006	-0.000000610053
-92.144	-0.000000560781
-102.492	-0.000000459815
-112.719	-0.000000427976
-122.958	-0.000000408969
-133.311	-0.00000032592
-143.372	-0.00000035098
-153.573	-0.000000335242
-163.902	-0.000000292749
-174.242	-0.000000189119
-184.543	-0.000000177255
-194.672	-0.000000171807
-205.012	-0.000000155101
-215.23	-0.00000012544
-225.618	-0.0000000347644
-235.958	0.0000000269776
-245.992	0.000000130728
-256.229	0.000000190533
-266.551	0.000000258813
-276.873	0.000000246828
-287.062	0.000000291137
-297.398	0.000000326124
-308.14	0.000000381207
-317.84	0.000000452029
-327.92	0.000000505297
-338.28	0.000000540163
-348.57	0.000000573334
-358.54	0.000000618127
-368.99	0.000000626359
-379.35	0.000000576239
-389.58	0.000000525998
-399.78	0.000000356631
-410.01	0.0000000872668
-420.32	-0.000000295049
-430.47	-0.00000104321
-440.9	-0.00000176002
-451.23	-0.0000026663
-461.36	-0.00000326992
-471.62	-0.00000365199
-481.88	-0.00000382136
-492.26	-0.00000375284
-502.36	-0.00000359146
-512.5	-0.00000340466
-522.8	-0.00000314994
-533.09	-0.00000294051
-543.31	-0.00000271315
-553.68	-0.00000258362
-563.87	-0.00000242103
-574.03	-0.00000227551
-584.3	-0.0000021484
-594.74	-0.00000205167
-604.81	-0.00000195615
-614.89	-0.0000018708
-625.21	-0.0000018099
-635.56	-0.0000017708
-645.78	-0.00000168145
-656.12	-0.00000163787
-666.2	-0.00000160773
-676.44	-0.00000162855
-686.64	-0.00000161293
-696.98	-0.00000157432
-707.23	-0.0000015656
-717.23	-0.00000149623
-727.61	-0.00000149938
-737.89	-0.00000148655
-748.06	-0.00000148243
-758.4	-0.00000147638
-768.4	-0.00000148679
-778.72	-0.00000148473
-788.95	-0.00000140446
-799.3	-0.00000135906
-809.38	-0.00000133425
-819.46	-0.00000131742
-829.8	-0.00000132989
-840.04	-0.00000130991
-850.34	-0.00000131124
-860.53	-0.00000128788
-870.86	-0.00000129478
-881	-0.00000129538
-891.04	-0.00000126572
-901.42	-0.00000129817
-911.6	-0.00000121391
-921.89	-0.00000123643
-931.89	-0.00000124466
-942.2	-0.00000120955
-952.52	-0.00000126536
-962.63	-0.00000125083
-972.86	-0.00000124272
-982.92	-0.00000123171
-993.16	-0.00000114757
-1003.36	-0.00000115871
-1013.59	-0.00000115882
-1023.79	-0.00000118897
-1033.84	-0.00000118752
-1044.15	-0.00000122953
-1054.38	-0.00000121003
-1064.36	-0.0000012173
-1074.67	-0.00000118607
-1084.69	-0.0000010943
-1094.92	-0.0000011598
-1105.08	-0.00000112917
-1115.34	-0.000001123
-1125.47	-0.00000111537
-1135.49	-0.00000111598
-1145.7	-0.00000111694
-1156.02	-0.00000113498
-1166.14	-0.00000116573
-1176.29	-0.00000113946
